Folder: lactose-detection-with-ML/raw_data/uM/0

Note: raw_data/uM/0/(02-12-2022) EIS Curva de calibração para lactose (FTO) - Branco(1).txt
Index	Frequency (Hz)	Z' (Ω)	-Z'' (Ω)	Z (Ω)	-Phase (°)	Time (s)
1	100000	56.9729428864652	1.18827567976663	56.9853333782962	1.19483579811553	437.315304895885
2	79433	56.9728901463753	1.09677464002269	56.9834460720124	1.10285430031933	439.23834089103
3	63096	56.9820178777931	1.05061390102719	56.9917024749583	1.05627924295416	441.366377885657
4	50119	56.9940707311958	1.07361360278131	57.0041818174827	1.07916934407785	443.439415880423
5	39811	57.0316077870335	1.13062669355434	57.0428137760945	1.13571501443387	445.557455875076
6	31623	57.093751575943	1.22399640006942	57.1068703064953	1.22813941846907	447.725495869602
7	25119	57.1760630289205	1.37045552765374	57.1924849245106	1.37306210923811	449.92853686404
8	19953	57.2635884361823	1.56448281252752	57.2849558528168	1.56497299679876	452.271582858124
9	15849	57.3442544016965	1.79445698177238	57.3723242404029	1.79235517918212	454.619625852196
10	12589	57.5053421091034	2.0731363117055	57.5426994956956	2.06468715595501	457.017667846141
11	10000	57.6363411951185	2.44503058376413	57.6881790396928	2.42912693113046	459.510713839847
12	7943.3	57.8217073350121	2.84676120670603	57.8917428352593	2.81859208662684	461.968759833641
13	6309.6	58.016006248748	3.35891030146421	58.1131590904164	3.31351289012927	464.546806827132
14	5011.9	58.2540671939105	3.96915586462404	58.3891303489812	3.89783834371788	467.229855820358
15	3981.1	58.4830043017354	4.71635094185503	58.672870718617	4.61062948840266	469.88290581366
16	3162.3	58.7778333091868	5.60389524470142	59.0443674742658	5.44613425739714	472.605955806785
17	2511.9	59.1043084306284	6.68740927802861	59.4814317070017	6.45532807178567	475.444010799619
18	1995.3	59.4729195003613	8.01823457660303	60.0110009883346	7.67840930989729	478.362064792252
19	1584.9	59.8834924899064	9.59419129724193	60.6471860801204	9.10224802495319	481.310117784809
20	1258.9	60.3150423403692	11.5590081352719	61.4126615739117	10.8488447562139	484.333175777176
21	1000	60.8435218373347	13.9923470174087	62.4317221020357	12.9512771490642	487.341228769582
22	794.33	61.4327706970077	16.9548524960364	63.729524858369	15.4289918082261	490.459288761709
23	630.96	61.9970494193464	20.5946317111755	65.3281944647473	18.3758313142993	493.612346753749
24	501.19	62.7011014205142	25.1479670350029	67.5562607412459	21.8545838282352	496.825404745636
25	398.11	63.5277178101632	30.7949569493188	70.5981607669642	25.8617117247527	500.108468737347
26	316.23	64.3908673170613	37.8262555409798	74.6793773547617	30.4320005103032	503.486529728819
27	251.19	65.4228163125072	46.6011785915187	80.3231893065674	35.4625650987283	510.308659711594
28	199.53	66.4373659753405	57.4515419201287	87.8328142936433	40.8515269625957	515.049743699624
29	158.49	67.8325063956763	71.1560440748643	98.3078406451057	46.3698135494671	518.602807690654
30	125.89	69.2239411201344	88.2145581881902	112.132788695107	51.8779281508868	522.360879681166
31	100	71.8111179112117	109.79436468662	131.193136911183	56.8132658336404	529.1980076

Note: raw_data/uM/0/(02-12-2022) EIS Curva de calibração para lactose (FTO) - Branco(2).txt
Index	Frequency (Hz)	Z' (Ω)	-Z'' (Ω)	Z (Ω)	-Phase (°)	Time (s)
1	100000	57.0092999540385	1.11005351828713	57.0201061035754	1.11549072918139	729.479714158241
2	79433	56.977173664052	1.07699752958795	56.9873516003532	1.08289094276458	731.33774715355
3	63096	56.9873562174993	1.07038036782006	56.997407684841	1.07604688295003	733.465786148177
4	50119	56.9884465012928	1.05789360623189	56.9982646535209	1.06347657560643	735.608828142766
5	39811	57.0677198973978	1.14692162718619	57.0792438939652	1.15135006990885	737.701864137482
6	31623	57.1135861680766	1.23090333451799	57.1268487490535	1.23463880559006	739.849904132059
7	25119	57.1954169905094	1.39105204370117	57.2123304061855	1.39321830573021	742.032946126547
8	19953	57.256557314371	1.56373635928346	57.2779069702726	1.56441867277137	744.255985120934
9	15849	57.3698509506551	1.7959513601859	57.39795501051	1.79304699930542	746.624030114956
10	12589	57.5220888639076	2.07570030486422	57.5595277866566	2.06663715956512	749.037076108863
11	10000	57.6616691706523	2.42635705290876	57.7126961776519	2.4095392211429	751.425118102834
12	7943.3	57.8309179506721	2.84806634013175	57.9010064929373	2.81943382801587	753.908167096565
13	6309.6	58.0472822858392	3.36158305487679	58.1445373307479	3.31436087490383	756.461212090119
14	5011.9	58.2649761027715	3.96946311929577	58.4000349119072	3.89741155119995	759.144264083345
15	3981.1	58.5128656037895	4.7109966951873	58.7022055039604	4.6030775768647	761.827311076571
16	3162.3	58.8146210865507	5.61185794697977	59.0817450924701	5.4504354191368	764.570364069645
17	2511.9	59.1311397943345	6.68955594754702	59.5083343083344	6.45447737149065	767.383414062543
18	1995.3	59.5059027500422	8.00694519391535	60.0421821175401	7.6635275101446	770.276468055239
19	1584.9	59.9020418694884	9.61142531325484	60.6682298792887	9.11554774450796	773.194522047871
20	1258.9	60.4142087679804	11.5771167627953	61.513464002611	10.848025097168	776.197579040289
21	1000	60.8764145991859	14.0014409500609	62.4658162768247	12.9526443669189	779.130634032884
22	794.33	61.4342764419504	16.9556921232773	63.7311997166643	15.4293593048293	782.258692024987
23	630.96	62.0905242922494	20.6291737862644	65.4277923973467	18.378732459419	785.381748017102
24	501.19	62.7261111877234	25.1905462566688	67.5953300564766	21.8801900146156	788.544806009116
25	398.11	63.5359993785098	30.8189147601564	70.6160656226314	25.8762725756024	791.792866000915
26	316.23	64.3582795791746	37.8382191806232	74.6573437858063	30.4525847567286	794.975926992879
27	251.19	65.4133167009753	46.6710365085643	80.3560056909615	35.5070651634261	801.903054975389
28	199.53	66.4830267802583	57.5656505876163	87.9420091733188	40.8883024216697	806.614144963495
29	158.49	67.7295332815469	71.1593064151298	98.2391804119849	46.414595983664	810.122206954638
30	125.89	69.3886457903154	88.4393538788245	112.411313839479	51.8826186066945	813.850273945226
31	100	71.4368125383193	109.790957841692	130.985772545842	56.9494732693994	817.163335936861


Note: README.md
# lactose-detection-with-ML is currently a work in progress
Attempt to detect lactose using machine learning techniques, based on electrochemical impedance spectroscopy data.
This will be part of my Ph.D thesis.

Use this code at your own risk!

File: (09-12-2022) EIS Estabilização ABL@PMB-ITO - Leite desnatado(1).txt
Index	Frequency (Hz)	Z' (Ω)	-Z'' (Ω)	Z (Ω)	-Phase (°)	Time (s)
1	100000	86.6583	5.45503	86.8298	3.60195	468.326
2	79433	87.0981	4.99689	87.2413	3.28351	470.418
3	63096	87.6064	4.65754	87.7302	3.04323	472.75
4	50119	88.0249	4.42594	88.1361	2.87844	475.177
5	39811	88.4311	4.25236	88.5333	2.75305	477.674
6	31623	88.8275	4.1955	88.9265	2.70418	479.956
7	25119	89.258	4.19921	89.3568	2.69353	482.468
8	19953	89.6558	4.30928	89.7593	2.75179	484.965
9	15849	90.0752	4.50935	90.188	2.86595	487.572
10	12589	90.6015	4.77384	90.7272	3.01615	490.219
11	10000	91.1689	4.93269	91.3022	3.09697	494.343
12	7943.3	91.6886	5.53158	91.8554	3.45247	499.674
13	6309.6	92.312	6.05325	92.5103	3.75173	502.411
14	5011.9	92.9654	6.67128	93.2044	4.10456	505.398
15	3981.1	93.7563	7.40261	94.0481	4.51447	508.365
16	3162.3	94.5419	8.23961	94.9003	4.98091	511.307
17	2511.9	95.4704	9.21737	95.9143	5.51463	514.39
18	1995.3	96.5227	10.3154	97.0724	6.10008	517.537
19	1584.9	97.59	11.5921	98.2761	6.77405	520.659
20	1258.9	98.8853	13.1007	99.7494	7.54679	523.906
21	1000	100.167	14.7847	101.252	8.3963	527.598
22	794.33	101.583	16.7719	102.959	9.37524	531.345
23	630.96	103.157	19.0575	104.902	10.467	538.703
24	501.19	104.67	21.7885	106.914	11.759	542.495
25	398.11	106.255	25.1018	109.18	13.2919	546.297
26	316.23	107.828	29.2115	111.715	15.1581	550.184
27	251.19	109.324	34.3191	114.584	17.4282	554.316
28	199.53	110.957	40.8807	118.249	20.2256	558.473
29	158.49	112.551	49.0972	122.794	23.5678	562.745
30	125.89	114.489	59.4499	129.004	27.4411	567.298
31	100	116.924	72.6108	137.636	31.8406	572.365
32	79.433	119.876	89.113	149.37	36.6262	577.352
33	63.096	124.577	110.06	166.231	41.4595	581.569
34	50.119	130.208	134.583	187.261	45.9466	585.981
35	39.811	137.573	166.565	216.033	50.4452	590.418
36	31.623	149.602	204.898	253.7	53.8658	595.04
37	25.119	164.972	251.533	300.807	56.7405	599.692
38	19.953	187.005	306.963	359.44	58.6498	604.649
39	15.849	218.629	374.554	433.692	59.7276	609.986
40	12.589	262.771	452.286	523.079	59.8441	615.118
41	10	322.987	535.106	625.027	58.8851	621.321
42	7.9433	402.613	624.498	743.031	57.1902	636.132
43	6.3096	515.202	724.542	889.041	54.5844	642.604
44	5.0119	637.253	813.829	1033.64	51.938	655.146
45	3.9811	801.794	884.146	1193.56	47.7965	669.74
46	3.1623	974.548	938.927	1353.27	43.9335	676.493
47	2.5119	1171.12	985.492	1530.59	40.0804	683.57
48	1.9953	1355.2	976.891	1670.59	35.7858	690.747
49	1.5849	1545.82	959.662	1819.48	31.8325	698.119
50	1.2589	1721.19	917.764	1950.58	28.0672	705.731
51	1	1869.36	865.122	2059.84	24.8342	718.007
52	0.79433	2033.06	803.969	2186.25	21.5763	723.044
53	0.63096	2126	703.682	2239.43	18.3139	727.631
54	0.50119	2271.55	518.364	2329.95	12.8547	732.554
55	0.39811	2327.61	595.076	2402.47	14.3411	737.756
56	0.31623	2374.61	374.824	2404.01	8.96992	743.993
57	0.25119	2408.76	506.616	2461.46	11.8775	750.64
58	0.19953	2392.39	429.199	2430.59	10.1707	757.897
59	0.15849	2574.04	542.715	2630.63	11.906	766.154
60	0.12589	2541.33	447.501	2580.43	9.98678	775.711
61	0.1	2611.26	371.905	2637.61	8.10575	787.064

File: (09-12-2022) EIS Estabilização ABL@PMB-ITO - Leite desnatado.txt
Index	Frequency (Hz)	Z' (Ω)	-Z'' (Ω)	Z (Ω)	-Phase (°)	Time (s)
1	100000	86.698	5.49849	86.8722	3.62891	127.735
2	79433	87.1416	5.04686	87.2876	3.31462	129.652
3	63096	87.5775	4.69866	87.7035	3.07105	131.899
4	50119	88.0199	4.45149	88.1324	2.89519	134.401
5	39811	88.4085	4.2906	88.5126	2.77847	136.639
6	31623	88.8572	4.21036	88.9569	2.71284	139.036
7	25119	89.2916	4.22847	89.3917	2.71126	144.998
8	19953	89.6893	4.31663	89.7931	2.75545	149.685
9	15849	90.1404	4.48969	90.2521	2.85142	152.122
10	12589	90.6477	4.76771	90.773	3.01075	154.849
11	10000	91.2382	4.94542	91.3721	3.10259	158.913
12	7943.3	91.719	5.55216	91.8869	3.46414	164.099
13	6309.6	92.3255	6.06747	92.5247	3.75997	166.826
14	5011.9	93.0649	6.68766	93.3048	4.11022	169.743
15	3981.1	93.7969	7.38562	94.0873	4.50221	172.64
16	3162.3	94.5929	8.24503	94.9516	4.9815	175.547
17	2511.9	95.4869	9.20709	95.9297	5.50758	178.519
18	1995.3	96.5029	10.3291	97.0541	6.10937	181.536
19	1584.9	97.6346	11.5996	98.3212	6.77535	184.563
20	1258.9	98.839	13.1084	99.7045	7.55471	187.67
21	1000	100.157	14.7885	101.243	8.39918	191.183
22	794.33	101.644	16.7913	103.021	9.38039	194.875
23	630.96	103.126	19.0771	104.875	10.4806	198.517
24	501.19	104.661	21.8311	106.914	11.7823	202.099
25	398.11	106.175	25.1099	109.104	13.3057	205.756
26	316.23	107.715	29.2303	111.611	15.1825	209.528
27	251.19	109.226	34.2862	114.481	17.4271	213.475
28	199.53	110.755	40.829	118.041	20.236	217.262
29	158.49	112.445	49.0602	122.682	23.5718	221.294
30	125.89	114.423	59.495	128.966	27.4724	225.591
31	100	116.843	72.5271	137.523	31.8289	233.584
32	79.433	119.887	89.1221	149.384	36.6266	238.046
33	63.096	124.487	110.126	166.206	41.4971	242.083
34	50.119	129.637	134.248	186.623	46.0011	246.531
35	39.811	137.574	166.382	215.893	50.414	250.763
36	31.623	149.176	205.056	253.577	53.9646	255.05
37	25.119	164.594	250.426	299.674	56.6849	259.402
38	19.953	187.124	306.407	359.027	58.5875	264.099
39	15.849	219.624	371.915	431.92	59.4372	269.346
40	12.589	262.128	446.195	517.495	59.5669	274.303
41	10	322.708	534.236	624.139	58.8657	280.25
42	7.9433	407.205	624.151	745.239	56.879	286.147
43	6.3096	505.949	718.364	878.653	54.8427	301.344
44	5.0119	637	811.313	1031.5	51.8629	313.776
45	3.9811	798.591	889.505	1195.39	48.0827	327.995
46	3.1623	967.471	952.099	1357.38	44.5412	334.367
47	2.5119	1160.39	973.668	1514.77	39.9997	341.379
48	1.9953	1344.99	974.356	1660.84	35.9208	348.386
49	1.5849	1533.64	956.386	1807.41	31.9478	355.574
50	1.2589	1673.05	920.907	1909.75	28.83	362.961
51	1	1838.48	843.391	2022.7	24.6429	373.14
52	0.79433	1988.24	723.596	2115.81	19.9984	381.102
53	0.63096	2156.18	820.401	2306.98	20.8312	385.799
54	0.50119	2181.71	611.352	2265.75	15.6537	390.766
55	0.39811	2295.5	552.432	2361.04	13.5314	395.988
56	0.31623	2508.28	520.38	2561.69	11.7206	401.83
57	0.25119	2391.67	531.61	2450.04	12.5317	408.853
58	0.19953	2527.56	537.741	2584.12	12.0107	416.08
59	0.15849	2538.59	406.237	2570.89	9.09165	424.692
60	0.12589	2572.81	384.268	2601.35	8.49475	434.544
61	0.1	2600.84	315.552	2619.91	6.9177	446.001

File: (09-12-2022) EIS Estabilização ABL@PMB-ITO(5).txt
Index	Frequency (Hz)	Z' (Ω)	-Z'' (Ω)	Z (Ω)	-Phase (°)	Time (s)
1	100000	64.1229	6.70324	64.4723	5.96787	1805.82
2	79433	65.0693	6.44289	65.3875	5.65476	1807.84
3	63096	65.9746	6.14056	66.2598	5.31746	1810.11
4	50119	66.8177	5.83193	67.0717	4.98821	1812.5
5	39811	67.557	5.53254	67.7832	4.68175	1814.82
6	31623	68.2184	5.29304	68.4234	4.43667	1817.19
7	25119	68.8739	5.08105	69.0611	4.21925	1819.54
8	19953	69.4126	4.97504	69.5907	4.09958	1821.97
9	15849	69.9587	4.93542	70.1326	4.03539	1824.46
10	12589	70.5002	4.99187	70.6767	4.05015	1826.98
11	10000	70.9927	5.16948	71.1807	4.16476	1834.49
12	7943.3	71.5695	5.40781	71.7735	4.32107	1837.04
13	6309.6	72.1287	5.74703	72.3573	4.55556	1839.71
14	5011.9	72.7547	6.20816	73.0191	4.87723	1842.42
15	3981.1	73.4135	6.77996	73.726	5.27647	1845.22
16	3162.3	74.1209	7.46258	74.4956	5.74923	1848.1
17	2511.9	74.8654	8.26503	75.3202	6.29986	1851
18	1995.3	75.7322	9.21992	76.2913	6.94125	1853.94
19	1584.9	76.71	10.3959	77.4112	7.71783	1856.88
20	1258.9	77.669	11.7072	78.5464	8.5718	1859.94
21	1000	78.7643	13.2832	79.8765	9.57255	1863.03
22	794.33	79.9421	15.1374	81.3626	10.7223	1866.27
23	630.96	81.1389	17.3589	82.975	12.0758	1869.52
24	501.19	82.2932	20.0308	84.696	13.6802	1872.99
25	398.11	83.574	23.3727	86.7807	15.6245	1878.79
26	316.23	84.7562	27.4937	89.104	17.9723	1882.36
27	251.19	85.989	32.7539	92.0159	20.8522	1886.33
28	199.53	87.3205	39.4369	95.813	24.3055	1890.21
29	158.49	88.7191	47.8113	100.782	28.3205	1894.27
30	125.89	90.4472	58.3732	107.648	32.8376	1898.42
31	100	92.696	71.6929	117.185	37.7191	1902.69
32	79.433	95.8125	88.2695	130.275	42.6535	1907.09
33	63.096	100.184	108.28	147.517	47.224	1911.6
34	50.119	106.422	134.114	171.208	51.5674	1916.5
35	39.811	113.452	165.324	200.508	55.5405	1921.26
36	31.623	125.151	204.258	239.55	58.5039	1925.46
37	25.119	140.481	250.471	287.178	60.7133	1929.62
38	19.953	162.897	304.57	345.396	61.8602	1934.29
39	15.849	192.055	369.594	416.515	62.5418	1939.47
40	12.589	238.885	446.587	506.464	61.8571	1944.39
41	10	297.478	530.386	608.114	60.7132	1950.15
42	7.9433	373.715	625.901	728.982	59.1593	1956.03
43	6.3096	476.549	720.388	863.747	56.5147	1970.95
44	5.0119	610.953	810.691	1015.13	52.9976	1983.21
45	3.9811	766.299	884.491	1170.27	49.0952	1997.16
46	3.1623	941.068	942.564	1331.93	45.0455	2003.36
47	2.5119	1128.66	979.604	1494.49	40.9558	2010
48	1.9953	1319.52	982.98	1645.41	36.6844	2016.83
49	1.5849	1505.23	958.885	1784.71	32.4986	2024.18
50	1.2589	1679.03	956.893	1932.56	29.6791	2031.37
51	1	1846.73	867.604	2040.38	25.1644	2043.25
52	0.79433	1978.15	815.928	2139.82	22.4147	2050.97
53	0.63096	2070.8	702.156	2186.6	18.7305	2059.16
54	0.50119	2193.62	647.997	2287.33	16.4572	2064
55	0.39811	2251.89	656.229	2345.55	16.2468	2069.19
56	0.31623	2321.99	578.645	2393	13.9932	2074.95
57	0.25119	2418.28	467.696	2463.1	10.9459	2081.19
58	0.19953	2424.5	445.908	2465.17	10.4212	2088.43
59	0.15849	2500.39	407.869	2533.44	9.26459	2096.62
60	0.12589	2594.15	519.79	2645.71	11.3303	2106.18
61	0.1	2566.3	536.656	2621.81	11.8113	2117.37