Folder: lactose-detection-with-ML/raw_data/nM/0

Note: raw_data/nM/0/(02-12-2022) EIS Curva de calibração para lactose (FTO) - Branco.txt
Index	Frequency (Hz)	Z' (Ω)	-Z'' (Ω)	Z (Ω)	-Phase (°)	Time (s)
1	100000	56.9716790556214	1.1480829048129	56.9832458602795	1.15445786166625	132.365660665809
2	79433	56.9754251369686	1.11039256731767	56.9862443155527	1.11649460397533	134.413695660638
3	63096	56.9302498241178	1.07250882742432	56.9403514234095	1.07926737221535	136.721739654811
4	50119	56.9321933375836	1.08997568396381	56.9426262585388	1.09680260462517	139.119781648756
5	39811	57.0226776741719	1.15349341211084	57.0343433045765	1.15885985037972	141.422824642942
6	31623	57.0722792958548	1.24336595870629	57.0858215578205	1.2480376688994	143.760867637039
7	25119	57.1269816012581	1.3832280103474	57.143725347575	1.38704412784869	146.143913631022
8	19953	57.2270618936052	1.57281273778771	57.2486711887941	1.57430504722072	148.671958624639
9	15849	57.3599650367886	1.79243717854001	57.3879640696603	1.78984900861455	151.190009618282
10	12589	57.4866454029746	2.0793592904546	57.5242395407895	2.07155232167641	153.738051611849
11	10000	57.6044534890189	2.43187481396996	57.6557636050323	2.41740812563747	156.426102605062
12	7943.3	57.7968141026113	2.84296262815579	57.866692984107	2.81604755464709	159.164152598149
13	6309.6	57.9947321356842	3.36032066907168	58.0920021215378	3.3161143804023	161.982204591034
14	5011.9	58.1976081329218	3.96527204932605	58.3325378739713	3.89780212200139	164.935260583578
15	3981.1	58.4626153548739	4.70629352622374	58.6517398965019	4.60243743360482	167.933316576009
16	3162.3	58.756247824016	5.58619129917949	59.0212012042132	5.43101423473391	170.971373568339
17	2511.9	59.1023720882125	6.69135045478313	59.4799508856745	6.45931015976074	174.089430560466
18	1995.3	59.4499153240333	7.97400611391135	59.9823074376055	7.63947657216315	177.312491552329
19	1584.9	59.8942538374131	9.60738399491133	60.6599000161239	9.11294416074594	180.620551543977
20	1258.9	60.3481727036017	11.5660123514498	61.4465181306282	10.8494445811636	183.973611535511
21	1000	60.8423093415339	13.9697349215524	62.4254763681411	12.931300537268	187.376677526919
22	794.33	61.4186398612872	16.9538571452544	63.7156385396254	15.4315096352178	190.789739518302
23	630.96	62.0218154216328	20.5869071241051	65.3492642126261	18.3625587490778	194.19280050971
24	501.19	62.7227464715916	25.1208668628745	67.5662702602551	21.8264219994275	197.605866501093
25	398.11	63.4955268592258	30.7672931953218	70.5571276463091	25.8528997819795	201.14393149216
26	316.23	64.336935105655	37.7692573608906	74.6040080718352	30.4152365609759	204.756996483038
27	251.19	65.3879866306729	46.4853182090183	80.2276361648949	35.4096022449895	211.974133464817
28	199.53	66.4707268673427	57.3390465081692	87.7845304409545	40.7817457970526	216.885224452417
29	158.49	67.7780574585094	71.0970227389746	98.2275506932514	46.3690469931248	220.643290442929
30	125.89	69.5364037945541	88.1284198868969	112.258317484454	51.7253257484958	224.65136543281
31	100	71.5924034971677	109.626079958692	130.932614904044	56.8530549185134	231.65349941513

Note: raw_data/nM/0/(02-12-2022) EIS Estabilização ABL-PMB@FTO em eletrólito suporte(1).txt
Index	Frequency (Hz)	Z' (Ω)	-Z'' (Ω)	Z (Ω)	-Phase (°)	Time (s)
1	100000	57.863549984598	1.34669592565399	57.8792191268701	1.33324114766853	415.706890950441
2	79433	57.8839853964764	1.22998535018278	57.8970519917997	1.21730328378869	417.549923945788
3	63096	57.876706218091	1.16491814047074	57.8884285235764	1.15306979712384	419.66796394044
4	50119	57.8668748559549	1.1738696428039	57.8787800107522	1.16212518719336	421.876005934865
5	39811	57.9020700415652	1.20171553509825	57.9145390668493	1.18896172270574	423.989043929531
6	31623	57.9963718932773	1.28467523354615	58.0105985423268	1.26894892494855	426.192082923968
7	25119	58.0699785076993	1.41085538875015	58.087114894894	1.39177181654775	428.475124918204
8	19953	58.1581599835505	1.58145543590394	58.179657733335	1.55762147039786	430.678167912642
9	15849	58.2517562292388	1.80187769663299	58.2796179382147	1.77174192246288	432.97620890684
10	12589	58.3928281343501	2.06941556775658	58.429486206194	2.02968720592975	435.314251900937
11	10000	58.5461532637515	2.41300249668704	58.5958585825969	2.36013206867247	437.787298894693
12	7943.3	58.6919052430322	2.83148069898789	58.7601652823221	2.76198581698056	440.305343888336
13	6309.6	58.9313088518087	3.31829844202845	59.0246581314761	3.2228020385911	442.823393881978
14	5011.9	59.1472508253223	3.89967000331495	59.2756670677635	3.77214015630223	445.506440875204
15	3981.1	59.4273502361925	4.61680751841461	59.6064163304352	4.44228674335722	448.164489868493
16	3162.3	59.7317047438028	5.47848028001328	59.9824165716864	5.24040013295393	450.857541861694
17	2511.9	60.0348735579009	6.52592639360574	60.3885233997976	6.20382204250754	453.810594854238
18	1995.3	60.4135156385586	7.76470113566867	60.9104544026444	7.32384015927935	456.718649846896
19	1584.9	60.8630079875646	9.31116879092485	61.5711263949868	8.69799456153237	459.631703839542
20	1258.9	61.3029793262624	11.1773044813076	62.3136213820382	10.3331692562854	462.584757832086
21	1000	61.8986476757295	13.4989269426966	63.3534814567309	12.3025087613123	465.512813824693
22	794.33	62.4478486891759	16.3054306633858	64.5414663222388	14.6334904075333	468.610870816871
23	630.96	63.1292387485728	19.8043365490919	66.1627730005628	17.4172148979059	471.66892780915
24	501.19	63.8858345974739	24.1308967770403	68.2912881814362	20.692506085452	474.851986801114
25	398.11	64.7911428597687	29.4950155785043	71.1888203094501	24.4765571400046	478.055045793027
26	316.23	65.9139150339172	36.1757603086103	75.1886283224031	28.7594522797043	481.338107784738
27	251.19	67.2786368347961	44.4790143758526	80.6523260309068	33.4693470914324	488.120231767615
28	199.53	68.7691458517782	54.7801813127185	87.9207807394672	38.5401541916871	492.826320755733
29	158.49	70.9295154906728	67.7295880466257	98.0728977073035	43.6779822243131	496.314381746927
30	125.89	73.9480256092573	83.800435609154	111.762352783893	48.5738492510694	499.752447738246
31	100	77.9466443256932	103.938434543633	129.918734357356	53.1326360878338	506.7245757206

Note: README.md
# lactose-detection-with-ML is currently a work in progress
Attempt to detect lactose using machine learning techniques, based on electrochemical impedance spectroscopy data.
This will be part of my Ph.D thesis.

Use this code at your own risk!

File: (09-12-2022) EIS Estabilização ABL@PMB-ITO - Adoçante(1).txt
Index	Frequency (Hz)	Z' (Ω)	-Z'' (Ω)	Z (Ω)	-Phase (°)	Time (s)
1	100000	88.6538	6.3439	88.8805	4.093	465.387
2	79433	89.2718	5.88553	89.4656	3.77195	467.404
3	63096	89.8703	5.48859	90.0378	3.49485	469.691
4	50119	90.4235	5.1952	90.5727	3.28826	472.033
5	39811	91.033	4.96929	91.1686	3.12455	474.365
6	31623	91.5061	4.84177	91.6341	3.02881	476.687
7	25119	91.9707	4.81091	92.0964	2.99437	479.129
8	19953	92.4813	4.85546	92.6087	3.00539	481.486
9	15849	93.0862	4.72193	93.2058	2.90392	487.664
10	12589	93.6735	5.02269	93.808	3.06921	490.141
11	10000	94.1828	5.39379	94.3372	3.27771	492.843
12	7943.3	94.7371	6.0244	94.9285	3.63858	498.119
13	6309.6	95.4226	6.51176	95.6445	3.90388	500.781
14	5011.9	96.1496	7.14028	96.4143	4.24712	503.623
15	3981.1	96.9755	7.85678	97.2933	4.63188	506.39
16	3162.3	97.8538	8.72178	98.2417	5.09336	509.307
17	2511.9	98.8523	9.70416	99.3275	5.60666	512.274
18	1995.3	99.9427	10.8289	100.528	6.18392	515.327
19	1584.9	101.078	12.0928	101.798	6.82236	518.419
20	1258.9	102.448	13.6059	103.347	7.5651	521.556
21	1000	103.83	15.2823	104.949	8.37298	524.763
22	794.33	105.352	17.2637	106.757	9.30613	528.405
23	630.96	106.915	19.5643	108.69	10.3698	531.882
24	501.19	108.843	22.2716	111.098	11.5643	535.799
25	398.11	110.415	25.5067	113.323	13.0076	539.601
26	316.23	112.113	29.5645	115.945	14.7728	543.598
27	251.19	113.681	34.6023	118.831	16.9292	547.735
28	199.53	115.473	40.9781	122.529	19.5383	555.518
29	158.49	117.177	49.1313	127.06	22.7479	559.64
30	125.89	119.1	59.4829	133.128	26.5392	564.062
31	100	121.366	72.2682	141.253	30.772	568.59
32	79.433	124.401	88.6167	152.737	35.464	573.277
33	63.096	129.025	109.17	169.014	40.235	578.174
34	50.119	132.751	134.315	188.847	45.3356	582.876
35	39.811	141.101	165.501	217.486	49.55	587.513
36	31.623	151.469	203.724	253.863	53.3693	591.98
37	25.119	167.483	250.499	301.331	56.2334	596.677
38	19.953	188.358	305.546	358.939	58.3477	601.589
39	15.849	220.065	371.324	431.636	59.3469	606.486
40	12.589	258.316	449.203	518.179	60.0988	611.968
41	10	320.204	535.978	624.342	59.1451	617.585
42	7.9433	401.305	626.929	744.369	57.3762	632.257
43	6.3096	503.102	735.109	890.784	55.6126	638.604
44	5.0119	634.194	829.412	1044.09	52.5973	651.766
45	3.9811	792.682	905.391	1203.36	48.7974	658.068
46	3.1623	969.367	971.138	1372.15	45.0523	664.66
47	2.5119	1185.56	990.492	1544.87	39.8775	671.632
48	1.9953	1368.07	1020.89	1706.99	36.7313	678.84
49	1.5849	1579.22	1002.48	1870.54	32.4073	686.422
50	1.2589	1754.2	994.599	2016.54	29.5524	694.084
51	1	1916.17	890.542	2113	24.9268	701.128
52	0.79433	2037.48	828.518	2199.49	22.1286	709.19
53	0.63096	2139.62	710.449	2254.48	18.3685	717.632
54	0.50119	2249.14	610.894	2330.63	15.1956	722.459
55	0.39811	2316.16	607.393	2394.48	14.6944	731.782
56	0.31623	2335.33	500.959	2388.45	12.1072	737.809
57	0.25119	2500.27	481.784	2546.27	10.9068	744.411
58	0.19953	2424.66	389.393	2455.73	9.12361	751.568
59	0.15849	2443.63	464.583	2487.4	10.7646	759.985
60	0.12589	2580.56	507.914	2630.07	11.1348	769.482
61	0.1	2782.94	382.97	2809.17	7.83545	780.824

File: (09-12-2022) EIS Estabilização ABL@PMB-ITO - Adoçante(2).txt
Index	Frequency (Hz)	Z' (Ω)	-Z'' (Ω)	Z (Ω)	-Phase (°)	Time (s)
1	100000	88.6567	6.38818	88.8865	4.12134	802.529
2	79433	89.3863	5.92163	89.5822	3.79018	804.561
3	63096	90.004	5.53835	90.1742	3.52123	807.758
4	50119	90.6049	5.24388	90.7565	3.31238	810.105
5	39811	91.1757	5.0412	91.3149	3.16472	812.427
6	31623	91.6937	4.89211	91.8241	3.05399	814.764
7	25119	92.1497	4.86604	92.2781	3.02274	817.216
8	19953	92.7047	4.92233	92.8353	3.03937	819.633
9	15849	93.3016	4.77048	93.4235	2.92697	825.766
10	12589	93.8699	5.06362	94.0064	3.08771	828.248
11	10000	94.3985	5.42705	94.5543	3.29036	830.9
12	7943.3	94.9749	6.03276	95.1663	3.63452	836.381
13	6309.6	95.6718	6.54254	95.8953	3.9121	839.054
14	5011.9	96.3813	7.13341	96.6449	4.23288	841.881
15	3981.1	97.2207	7.89368	97.5406	4.64186	845.783
16	3162.3	98.0656	8.70535	98.4512	5.07289	848.69
17	2511.9	99.0537	9.67911	99.5254	5.58098	851.702
18	1995.3	100.14	10.8242	100.724	6.16918	854.714
19	1584.9	101.329	12.1109	102.05	6.8157	857.751
20	1258.9	102.683	13.6346	103.584	7.56368	860.893
21	1000	104.058	15.2797	105.174	8.35352	864.095
22	794.33	105.591	17.2866	106.996	9.29762	867.797
23	630.96	107.249	19.5432	109.015	10.3273	871.159
24	501.19	108.882	22.2837	111.139	11.5664	875.011
25	398.11	110.524	25.5259	113.434	13.0046	878.748
26	316.23	112.118	29.5448	115.946	14.7627	882.595
27	251.19	113.686	34.6578	118.851	16.9541	886.732
28	199.53	115.329	40.863	122.354	19.5102	890.894
29	158.49	117.177	49.076	127.039	22.7249	898.733
30	125.89	119.05	59.3922	133.043	26.5139	902.99
31	100	121.469	72.324	141.37	30.7699	907.462
32	79.433	124.291	88.5529	152.61	35.4685	912.034
33	63.096	128.138	109.743	168.709	40.5782	916.971
34	50.119	133.413	135.218	189.955	45.3849	921.563
35	39.811	141.396	165.462	217.648	49.4845	925.865
36	31.623	151.262	203.49	253.551	53.3752	930.232
37	25.119	167.636	250.284	301.237	56.1864	934.759
38	19.953	189.11	305.649	359.421	58.2542	939.556
39	15.849	218.395	369.605	429.307	59.4217	944.383
40	12.589	264.151	450.655	522.365	59.6234	950.056
41	10	321.829	534.877	624.233	58.9652	955.698
42	7.9433	396.771	631.65	745.929	57.865	970.349
43	6.3096	508.259	733.724	892.569	55.2892	976.556
44	5.0119	644.231	823.364	1045.45	51.959	989.893
45	3.9811	795.649	905.367	1205.3	48.6906	996.55
46	3.1623	961.748	963.069	1361.05	45.0393	1003.17
47	2.5119	1181.26	986.846	1539.23	39.8761	1010.16
48	1.9953	1338.61	1013.74	1679.15	37.137	1017.44
49	1.5849	1580.38	975.631	1857.27	31.6888	1024.89
50	1.2589	1739.38	945.396	1979.7	28.5251	1029.41
51	1	1924.96	961.644	2151.8	26.5451	1039.76
52	0.79433	2052.15	820.121	2209.96	21.7836	1047.97
53	0.63096	2038.18	751.813	2172.42	20.2472	1052.66
54	0.50119	2193.28	646.671	2286.63	16.4277	1057.49
55	0.39811	2420.8	644.886	2505.22	14.9168	1062.67
56	0.31623	2634.93	385.92	2663.04	8.33248	1068.45
57	0.25119	2470.74	500.927	2521.01	11.461	1074.89
58	0.19953	2616.47	536.811	2670.97	11.5943	1082.21
59	0.15849	2539.73	320.131	2559.83	7.18419	1090.67
60	0.12589	2809.33	390.49	2836.34	7.91328	1100.5
61	0.1	2542.8	529.895	2597.42	11.7714	1111.8

File: (09-12-2022) EIS Estabilização ABL@PMB-ITO - Adoçante.txt
Index	Frequency (Hz)	Z' (Ω)	-Z'' (Ω)	Z (Ω)	-Phase (°)	Time (s)
1	100000	88.7678	6.53153	89.0078	4.20824	127.602
2	79433	89.407	5.99239	89.6076	3.83444	129.579
3	63096	90.0287	5.59132	90.2022	3.55384	131.831
4	50119	90.6092	5.27084	90.7624	3.32921	134.218
5	39811	91.169	5.04838	91.3087	3.16945	136.451
6	31623	91.6591	4.90574	91.7903	3.06363	138.903
7	25119	92.1708	4.85165	92.2984	3.01313	141.41
8	19953	92.6603	4.9005	92.7898	3.02736	143.927
9	15849	93.2527	4.75649	93.374	2.91993	150.17
10	12589	93.8274	5.05209	93.9634	3.08209	152.747
11	10000	94.3613	5.41537	94.5166	3.28459	155.439
12	7943.3	94.9158	6.02958	95.1072	3.63486	160.8
13	6309.6	95.5662	6.55274	95.7906	3.92249	163.512
14	5011.9	96.3269	7.16417	96.5929	4.25346	166.419
15	3981.1	97.1231	7.86578	97.4411	4.63015	169.361
16	3162.3	98.0163	8.73528	98.4048	5.09278	172.363
17	2511.9	98.9713	9.68878	99.4444	5.59115	175.445
18	1995.3	100.071	10.8375	100.656	6.18097	178.597
19	1584.9	101.256	12.1431	101.981	6.83851	181.764
20	1258.9	102.57	13.6284	103.472	7.5685	185.086
21	1000	103.991	15.3145	105.113	8.37754	188.343
22	794.33	105.512	17.3007	106.92	9.31189	192.121
23	630.96	107.119	19.616	108.9	10.3772	195.868
24	501.19	108.834	22.3514	111.105	11.6056	199.78
25	398.11	110.417	25.5724	113.34	13.0397	203.507
26	316.23	112.142	29.6305	115.991	14.8006	207.429
27	251.19	113.724	34.677	118.893	16.9577	211.446
28	199.53	115.225	41.0402	122.316	19.6046	215.593
29	158.49	117.056	49.1241	126.946	22.7659	219.925
30	125.89	119.008	59.4137	133.015	26.5302	224.387
31	100	121.225	72.4995	141.25	30.8819	229.034
32	79.433	124.259	88.578	152.599	35.4831	233.811
33	63.096	128.41	109.77	168.934	40.5251	238.713
34	50.119	132.921	134.979	189.439	45.4401	246.897
35	39.811	141.299	165.648	217.726	49.5356	251.114
36	31.623	151.474	204.306	254.333	53.4464	255.536
37	25.119	167.795	249.75	300.883	56.1048	260.108
38	19.953	190.345	304.773	359.33	58.0133	264.875
39	15.849	218.879	371.96	431.581	59.5254	269.817
40	12.589	261.874	446.889	517.965	59.6299	275.509
41	10	320.297	537.15	625.396	59.1928	281.591
42	7.9433	394.063	623.629	737.698	57.7118	296.267
43	6.3096	509.091	732.118	891.724	55.1865	302.505
44	5.0119	627.569	827.659	1038.68	52.8289	315.677
45	3.9811	786.629	908.846	1201.99	49.123	322.044
46	3.1623	980.442	989.913	1393.27	45.2754	328.656
47	2.5119	1177.21	1042.41	1572.4	41.5248	335.478
48	1.9953	1376.78	1060.16	1737.66	37.5971	342.72
49	1.5849	1581.42	1010.76	1876.84	32.5845	350.232
50	1.2589	1746.88	980.13	2003.06	29.2957	357.91
51	1	1904.02	882.795	2098.72	24.8747	370.351
52	0.79433	2016.34	882.554	2201.03	23.639	378.448
53	0.63096	2296.12	699.998	2400.45	16.9544	383.87
54	0.50119	2283.3	777.182	2411.95	18.7974	388.922
55	0.39811	2353.13	622.046	2433.96	14.8073	394.434
56	0.31623	2478.83	514.59	2531.68	11.7277	400.451
57	0.25119	2613.67	452.259	2652.51	9.81703	406.919
58	0.19953	2560.23	518.105	2612.13	11.4402	414.186
59	0.15849	2642.28	472.383	2684.18	10.1362	422.728
60	0.12589	2604.98	472.334	2647.45	10.2772	432.375
61	0.1	2621.13	441.026	2657.97	9.55102	443.837

File: (09-12-2022) EIS Estabilização ABL@PMB-ITO - Leite desnatado(2).txt
Index	Frequency (Hz)	Z' (Ω)	-Z'' (Ω)	Z (Ω)	-Phase (°)	Time (s)
1	100000	86.8174	5.48593	86.9905	3.61568	808.753
2	79433	87.2134	5.01425	87.3574	3.29054	810.825
3	63096	87.6757	4.6807	87.8006	3.05592	813.087
4	50119	88.1203	4.41192	88.2307	2.86623	815.854
5	39811	88.5684	4.26599	88.6711	2.75758	818.226
6	31623	88.9374	4.19931	89.0365	2.7033	820.628
7	25119	89.4104	4.22483	89.5101	2.70533	823.16
8	19953	89.8098	4.31544	89.9134	2.751	825.567
9	15849	90.1817	4.48291	90.2931	2.84582	828.139
10	12589	90.7193	4.77187	90.8447	3.011	830.801
11	10000	91.2729	4.93297	91.4061	3.09362	834.9
12	7943.3	91.8112	5.55564	91.9791	3.46283	840.172
13	6309.6	92.4526	6.08549	92.6526	3.76594	842.899
14	5011.9	93.1149	6.69454	93.3553	4.11223	845.761
15	3981.1	93.8867	7.40727	94.1784	4.51105	848.673
16	3162.3	94.6918	8.24539	95.0501	4.97654	851.645
17	2511.9	95.6582	9.2367	96.1031	5.51535	854.662
18	1995.3	96.6916	10.3415	97.2431	6.1048	857.804
19	1584.9	97.7511	11.6165	98.4389	6.77712	860.931
20	1258.9	99.0036	13.0823	99.8642	7.52742	864.208
21	1000	100.299	14.7873	101.383	8.38684	867.8
22	794.33	101.686	16.7525	103.057	9.35526	871.722
23	630.96	103.224	19.0507	104.968	10.4566	876.044
24	501.19	104.726	21.8007	106.971	11.7592	880.841
25	398.11	106.329	25.0898	109.249	13.2768	884.478
26	316.23	107.8	29.234	111.693	15.173	889.195
27	251.19	109.366	34.3645	114.638	17.4435	893.778
28	199.53	110.837	40.8974	118.141	20.2535	897.955
29	158.49	112.645	49.1512	122.901	23.5735	906.428
30	125.89	114.607	59.6488	129.2	27.4955	910.74
31	100	116.972	72.799	137.776	31.8966	916.657
32	79.433	119.965	89.3652	149.592	36.6834	921.614
33	63.096	123.497	109.259	164.891	41.4995	926.181
34	50.119	128.898	134.707	186.442	46.2625	930.993
35	39.811	137.342	166.955	216.187	50.5583	935.455
36	31.623	148.932	205.371	253.689	54.0509	939.957
37	25.119	164.224	252.749	301.416	56.9862	944.394
38	19.953	186.384	308.017	360.019	58.8215	949.257
39	15.849	216.405	373.331	431.517	59.9009	954.884
40	12.589	260.785	453.798	523.394	60.1152	960.021
41	10	321.188	537.946	626.536	59.1601	966.338
42	7.9433	403.39	628.542	746.852	57.3082	972.56
43	6.3096	504.175	734.544	890.925	55.5351	988.066
44	5.0119	638.869	822.883	1041.77	52.175	1000.72
45	3.9811	792.619	906.397	1204.08	48.8312	1009.54
46	3.1623	975.987	964.23	1371.97	44.6528	1020.17
47	2.5119	1180.59	1001.77	1548.33	40.3158	1031.49
48	1.9953	1409.18	1045.7	1754.79	36.5777	1043.23
49	1.5849	1583.75	983.599	1864.33	31.8426	1054.4
50	1.2589	1735.6	937.612	1972.67	28.3789	1066.3
51	1	1873.09	954.722	2102.37	27.0082	1082.17
52	0.79433	2047.82	867.178	2223.86	22.9509	1093.5
53	0.63096	2128.63	760.976	2260.57	19.6717	1105.37
54	0.50119	2226.02	688.372	2330.03	17.1836	1110.28
55	0.39811	2365.39	584.888	2436.63	13.8889	1116.13
56	0.31623	2361.74	567.098	2428.87	13.5022	1123.08
57	0.25119	2511.04	457.029	2552.29	10.3154	1130.05
58	0.19953	2632.55	448.653	2670.5	9.67174	1138.1
59	0.15849	2699.55	489.227	2743.52	10.272	1147.01
60	0.12589	2579.95	465.237	2621.56	10.2222	1157.23
61	0.1	2586.43	479.219	2630.45	10.4968	1168.94